Wavelength, W/m2 
346.47,2.073687728
346.85,0.12543231
347.23,0.062463998
347.611,0.096387789
347.991,0.076092253
348.371,0.056492106
348.751,0.046047983
349.131,0.054466862
349.511,0.039352148
349.891,0.037344049
350.27,0.04878346
350.65,0.043200715
351.03,0.055181656
351.41,0.054716948
351.79,0.045391434
352.169,0.033659346
352.549,0.046573568
352.928,0.05494383
353.308,0.039020305
353.687,0.045735782
354.067,0.042453211
3.54E+02,0.052750339
3.55E+02,0.056858751
3.55E+02,0.049238075
3.56E+02,0.058539139
3.56E+02,0.059761656
3.56E+02,0.043920237
3.57E+02,0.051124764
3.57E+02,0.042433528
3.57E+02,0.040459619
3.58E+02,0.038883072
3.58E+02,0.037539337
3.59E+02,0.043485612
3.59E+02,0.04526539
3.59E+02,0.043374593
3.60E+02,0.035516374
3.60E+02,0.042355416
3.61E+02,0.043966563
3.61E+02,0.038896785
3.61E+02,0.041721073
3.62E+02,0.032907625
3.62E+02,0.038566956
3.62E+02,0.036733548
3.63E+02,0.034074845
3.63E+02,0.03755087
3.64E+02,0.042663125
3.64E+02,0.047455234
3.64E+02,0.033125794
3.65E+02,0.044277419
3.65E+02,0.030813635
3.65E+02,0.036712612
3.66E+02,0.037839639
3.66E+02,0.024834494
3.67E+02,0.034482278
3.67E+02,0.034462316
3.67E+02,0.029327876
3.68E+02,0.033261137
3.68E+02,0.030603832
3.68E+02,0.024023613
3.69E+02,0.031771482
3.69E+02,0.031828338
3.70E+02,0.030762134
3.70E+02,0.035393609
3.70E+02,0.031067703
3.71E+02,0.037430585
3.71E+02,0.027335892
3.71E+02,0.035134996
3.72E+02,0.034533724
3.72E+02,0.027028604
3.73E+02,0.028146753
3.73E+02,0.031548127
3.73E+02,0.036160289
3.74E+02,0.024196842
3.74E+02,0.027069255
3.74E+02,0.028924953
3.75E+02,0.03500601
3.75E+02,0.029361104
3.76E+02,0.02611162
3.76E+02,0.025841162
3.76E+02,0.029994465
3.77E+02,0.032814644
3.77E+02,0.028169894
3.78E+02,0.022229145
3.78E+02,0.029636745
3.78E+02,0.023418523
3.79E+02,0.023778961
3.79E+02,0.020700565
3.79E+02,0.026529383
3.80E+02,0.020775081
3.80E+02,0.027901881
3.81E+02,0.028818729
3.81E+02,0.023545086
3.81E+02,0.030544631
3.82E+02,0.022828701
3.82E+02,0.021002662
3.82E+02,0.026870429
3.83E+02,0.02664089
3.83E+02,0.026418834
3.84E+02,0.026374784
3.84E+02,0.023850143
3.84E+02,0.020878956
3.85E+02,0.024005312
3.85E+02,0.021891645
3.85E+02,0.02071772
3.86E+02,0.022875794
3.86E+02,0.020895412
3.87E+02,0.020065715
3.87E+02,0.021931279
3.87E+02,0.018604531
3.88E+02,0.018583339
3.88E+02,0.020093003
3.88E+02,0.022116904
3.89E+02,0.020387724
3.89E+02,0.013109137
3.90E+02,0.019189502
3.90E+02,0.019599222
3.90E+02,0.017671836
3.91E+02,0.01634619
3.91E+02,0.017615425
3.91E+02,0.019164677
3.92E+02,0.020639523
3.92E+02,0.018754197
3.93E+02,0.017548399
3.93E+02,0.013901911
3.93E+02,0.014129367
3.94E+02,0.016232019
3.94E+02,0.016155684
3.94E+02,0.017773118
3.95E+02,0.020530852
3.95E+02,0.024461204
3.96E+02,0.016170104
3.96E+02,0.014954199
3.96E+02,0.013425952
3.97E+02,0.016392055
3.97E+02,0.018557131
3.97E+02,0.016823651
3.98E+02,0.014302077
3.98E+02,0.015848063
3.99E+02,0.015722584
3.99E+02,0.01649795
3.99E+02,0.015679653
4.00E+02,0.017538158
4.00E+02,0.018299064
4.00E+02,0.015995889
4.01E+02,0.016771723
4.01E+02,0.016749866
4.02E+02,0.014482376
4.02E+02,0.017620137
4.02E+02,0.0218691
4.03E+02,0.017232179
4.03E+02,0.014296173
4.03E+02,0.027037999
4.04E+02,0.04012807
4.04E+02,0.038018197
4.05E+02,0.024540169
4.05E+02,0.0167086
4.05E+02,0.013257235
4.06E+02,0.016477779
4.06E+02,0.014366362
4.06E+02,0.016799697
4.07E+02,0.015364519
4.07E+02,0.019249349
4.08E+02,0.015572236
4.08E+02,0.014280788
4.08E+02,0.009973639
4.09E+02,0.013249598
4.09E+02,0.013559062
4.09E+02,0.014498176
4.10E+02,0.011963671
4.10E+02,0.013135696
4.11E+02,0.015070171
4.11E+02,0.013000711
4.11E+02,0.011242191
4.12E+02,0.016370464
4.12E+02,0.015043213
4.12E+02,0.015383656
4.13E+02,0.01436576
4.13E+02,0.012387892
4.14E+02,0.016036401
4.14E+02,0.031076495
4.14E+02,0.013141055
4.15E+02,0.014376416
4.15E+02,0.010696465
4.15E+02,0.01170134
4.16E+02,0.013605181
4.16E+02,0.018355121
4.17E+02,0.013798314
4.17E+02,0.01289874
4.17E+02,0.012572809
4.18E+02,0.012361245
4.18E+02,0.014257591
4.18E+02,0.014941897
4.19E+02,0.013942082
4.19E+02,0.015789821
4.19E+02,0.012247395
4.20E+02,0.014457831
4.20E+02,0.017215614
4.21E+02,0.013880292
4.21E+02,0.011046894
4.21E+02,0.013059596
4.22E+02,0.01354359
4.22E+02,0.010266308
4.22E+02,0.012615544
4.23E+02,0.016285521
4.23E+02,0.011236159
4.24E+02,0.012380184
4.24E+02,0.014209262
4.24E+02,0.016914397
4.25E+02,0.013081553
4.25E+02,0.01362685
4.25E+02,0.01108158
4.26E+02,0.012682935
4.26E+02,0.013920881
4.27E+02,0.011163486
4.27E+02,0.01247831
4.27E+02,0.015155172
4.28E+02,0.013284649
4.28E+02,0.010995486
4.28E+02,0.010759748
4.29E+02,0.014060884
4.29E+02,0.012829015
4.30E+02,0.013427016
4.30E+02,0.010970561
4.30E+02,0.011169687
4.31E+02,0.011762821
4.31E+02,0.012612701
4.31E+02,0.012834833
4.32E+02,0.012851529
4.32E+02,0.012952994
4.32E+02,0.016102558
4.33E+02,0.013396562
4.33E+02,0.01221497
4.34E+02,0.012850211
4.34E+02,0.014423087
4.34E+02,0.018691897
4.35E+02,0.058468076
4.35E+02,0.080699867
4.35E+02,0.076744907
4.36E+02,0.034789879
4.36E+02,0.016793392
4.37E+02,0.012936308
4.37E+02,0.010852158
4.37E+02,0.011743182
4.38E+02,0.01218581
4.38E+02,0.011050607
4.38E+02,0.013373949
4.39E+02,0.01274062
4.39E+02,0.013611037
4.40E+02,0.012615083
4.40E+02,0.010713962
4.40E+02,0.011829426
4.41E+02,0.014487008
4.41E+02,0.013568667
4.41E+02,0.013547327
4.42E+02,0.011090712
4.42E+02,0.013584981
4.42E+02,0.013420561
4.43E+02,0.01325359
4.43E+02,0.012211022
4.44E+02,0.010657278
4.44E+02,0.012791535
4.44E+02,0.013002005
4.45E+02,0.010856844
4.45E+02,0.011657741
4.45E+02,0.012100495
4.46E+02,0.012655948
4.46E+02,0.011325323
4.47E+02,0.010652508
4.47E+02,0.012837138
4.47E+02,0.011708177
4.48E+02,0.011242706
4.48E+02,0.010861519
4.48E+02,0.010768362
4.49E+02,0.01110084
4.49E+02,0.011134091
4.50E+02,0.013768723
4.50E+02,0.012081862
4.50E+02,0.011891282
4.51E+02,0.009146787
4.51E+02,0.012322447
4.51E+02,0.012578799
4.52E+02,0.0120375
4.52E+02,0.012178209
4.52E+02,0.012483357
4.53E+02,0.012597249
4.53E+02,0.010610197
4.54E+02,0.013828627
4.54E+02,0.012747874
4.54E+02,0.01209641
4.55E+02,0.014457653
4.55E+02,0.01291435
4.55E+02,0.014036625
4.56E+02,0.012286219
4.56E+02,0.011516779
4.57E+02,0.013240498
4.57E+02,0.012174942
4.57E+02,0.012124753
4.58E+02,0.011561902
4.58E+02,0.010317535
4.58E+02,0.011152916
4.59E+02,0.011177861
4.59E+02,0.011015706
4.59E+02,0.010046138
4.60E+02,0.011397777
4.60E+02,0.011227248
4.61E+02,0.011540876
4.61E+02,0.011584523
4.61E+02,0.011101654
4.62E+02,0.012376952
4.62E+02,0.010837944
4.62E+02,0.009321191
4.63E+02,0.010463926
4.63E+02,0.0104945
4.63E+02,0.009838268
4.64E+02,0.009307547
4.64E+02,0.010382536
4.65E+02,0.011047554
4.65E+02,0.011377597
4.65E+02,0.0112828
4.66E+02,0.010862126
4.66E+02,0.01494446
4.66E+02,0.011300829
4.67E+02,0.011446516
4.67E+02,0.011155522
4.68E+02,0.01091477
4.68E+02,0.009745827
4.68E+02,0.011650568
4.69E+02,0.011163846
4.69E+02,0.010143972
4.69E+02,0.010748752
4.70E+02,0.010629365
4.70E+02,0.010570732
4.70E+02,0.012656767
4.71E+02,0.010815314
4.71E+02,0.010048051
4.72E+02,0.009700384
4.72E+02,0.010451813
4.72E+02,0.010052358
4.73E+02,0.00959038
4.73E+02,0.011013674
4.73E+02,0.011050098
4.74E+02,0.01001881
4.74E+02,0.011673316
4.74E+02,0.011576796
4.75E+02,0.011436694
4.75E+02,0.010089969
4.76E+02,0.009037393
4.76E+02,0.009775201
4.76E+02,0.01032228
4.77E+02,0.009505935
4.77E+02,0.010377133
4.77E+02,0.009723325
4.78E+02,0.010153147
4.78E+02,0.010905632
4.79E+02,0.010158715
4.79E+02,0.012549874
4.79E+02,0.011441734
4.80E+02,0.011484888
4.80E+02,0.010031628
4.80E+02,0.010443152
4.81E+02,0.009980111
4.81E+02,0.010079233
4.81E+02,0.012088376
4.82E+02,0.010669227
4.82E+02,0.010992931
4.83E+02,0.01135955
4.83E+02,0.00996771
4.83E+02,0.011804444
4.84E+02,0.012179024
4.84E+02,0.013680636
4.84E+02,0.011229089
4.85E+02,0.012538536
4.85E+02,0.012399911
4.85E+02,0.012433253
4.86E+02,0.012858515
4.86E+02,0.011301442
4.87E+02,0.012580811
4.87E+02,0.013476396
4.87E+02,0.01389297
4.88E+02,0.012625667
4.88E+02,0.012831489
4.88E+02,0.013320991
4.89E+02,0.013764871
4.89E+02,0.013859041
4.89E+02,0.011770919
4.90E+02,0.014921041
4.90E+02,0.013201899
4.91E+02,0.01354897
4.91E+02,0.014590177
4.91E+02,0.014625189
4.92E+02,0.015330666
4.92E+02,0.015270625
4.92E+02,0.016489491
4.93E+02,0.015121527
4.93E+02,0.01593363
4.93E+02,0.016023708
4.94E+02,0.015663616
4.94E+02,0.016490291
4.95E+02,0.017679761
4.95E+02,0.018278639
4.95E+02,0.017244663
4.96E+02,0.018870707
4.96E+02,0.018436985
4.96E+02,0.019354641
4.97E+02,0.019621024
4.97E+02,0.019543351
4.97E+02,0.021275717
4.98E+02,0.021110377
4.98E+02,0.02265392
4.99E+02,0.021876275
4.99E+02,0.022413941
4.99E+02,0.02348582
5.00E+02,0.02408889
5.00E+02,0.02683697
5.00E+02,0.024596394
5.01E+02,0.0278603
5.01E+02,0.026604643
5.01E+02,0.028343767
5.02E+02,0.029114214
5.02E+02,0.028724948
5.03E+02,0.030312099
5.03E+02,0.031619982
5.03E+02,0.032983866
5.04E+02,0.032641181
5.04E+02,0.034806408
5.04E+02,0.036351645
5.05E+02,0.036856873
5.05E+02,0.038791602
5.05E+02,0.038829827
5.06E+02,0.038641412
5.06E+02,0.039721619
5.07E+02,0.044122709
5.07E+02,0.042857072
5.07E+02,0.044790432
5.08E+02,0.046209376
5.08E+02,0.045417768
5.08E+02,0.046419716
5.09E+02,0.048478067
5.09E+02,0.048068635
5.09E+02,0.050101941
5.10E+02,0.052024304
5.10E+02,0.052332931
5.11E+02,0.054440526
5.11E+02,0.055853011
5.11E+02,0.05474625
5.12E+02,0.055815883
5.12E+02,0.055675765
5.12E+02,0.057957559
5.13E+02,0.058304604
5.13E+02,0.058990577
5.13E+02,0.059258192
5.14E+02,0.059994863
5.14E+02,0.060186438
5.15E+02,0.061886524
5.15E+02,0.060645282
5.15E+02,0.060231739
5.16E+02,0.061741178
5.16E+02,0.063150892
5.16E+02,0.0620986
5.17E+02,0.061954735
5.17E+02,0.061772702
5.17E+02,0.060439764
5.18E+02,0.061160704
5.18E+02,0.060745856
5.18E+02,0.061709063
5.19E+02,0.060427546
5.19E+02,0.061335722
5.20E+02,0.05913041
5.20E+02,0.056765493
5.20E+02,0.057768242
5.21E+02,0.056977932
5.21E+02,0.05526993
5.21E+02,0.054993751
5.22E+02,0.054908607
5.22E+02,0.054318053
5.22E+02,0.055993694
5.23E+02,0.05168696
5.23E+02,0.050908737
5.24E+02,0.050287318
5.24E+02,0.049814729
5.24E+02,0.049522318
5.25E+02,0.048003926
5.25E+02,0.04865143
5.25E+02,0.046192163
5.26E+02,0.045765423
5.26E+02,0.04288495
5.26E+02,0.044838972
5.27E+02,0.044049796
5.27E+02,0.043803093
5.27E+02,0.042190317
5.28E+02,0.042352638
5.28E+02,0.040131742
5.29E+02,0.041327597
5.29E+02,0.040220133
5.29E+02,0.039549636
5.30E+02,0.039016345
5.30E+02,0.039344072
5.30E+02,0.039062704
5.31E+02,0.038216785
5.31E+02,0.036264313
5.31E+02,0.036383084
5.32E+02,0.036358454
5.32E+02,0.035616007
5.33E+02,0.035475387
5.33E+02,0.033954803
5.33E+02,0.034534285
5.34E+02,0.03445728
5.34E+02,0.033815092
5.34E+02,0.032643547
5.35E+02,0.032341471
5.35E+02,0.030804439
5.35E+02,0.030756495
5.36E+02,0.031697028
5.36E+02,0.030518607
5.36E+02,0.028980045
5.37E+02,0.030130376
5.37E+02,0.030677249
5.38E+02,0.029393418
5.38E+02,0.029476453
5.38E+02,0.028486334
5.39E+02,0.029011878
5.39E+02,0.027692566
5.39E+02,0.029157375
5.40E+02,0.028232264
5.40E+02,0.029900069
5.40E+02,0.030037624
5.41E+02,0.030744467
5.41E+02,0.031537572
5.41E+02,0.030021704
5.42E+02,0.030890885
5.42E+02,0.029540046
5.43E+02,0.029696742
5.43E+02,0.029054208
5.43E+02,0.027918107
5.44E+02,0.027533941
5.44E+02,0.02644843
5.44E+02,0.02887255
5.45E+02,0.03879508
5.45E+02,0.0555428
5.45E+02,0.064421631
5.46E+02,0.055219354
5.46E+02,0.04210209
5.46E+02,0.03158779
5.47E+02,0.026660117
5.47E+02,0.023142923
5.48E+02,0.023940876
5.48E+02,0.022139992
5.48E+02,0.021918304
5.49E+02,0.020375649
5.49E+02,0.021514381
5.49E+02,0.021183614
5.50E+02,0.020562734
5.50E+02,0.018912585
5.50E+02,0.020306159
5.51E+02,0.019092964
5.51E+02,0.018599052
5.51E+02,0.018303159
5.52E+02,0.018261642
5.52E+02,0.017175332
5.53E+02,0.016713317
5.53E+02,0.017302196
5.53E+02,0.01652265
5.54E+02,0.016548868
5.54E+02,0.016883017
5.54E+02,0.015935342
5.55E+02,0.017134071
5.55E+02,0.015698205
5.55E+02,0.015232365
5.56E+02,0.015198084
5.56E+02,0.017222161
5.56E+02,0.015846138
5.57E+02,0.015060254
5.57E+02,0.014630655
5.58E+02,0.015272974
5.58E+02,0.015230166
5.58E+02,0.015517942
5.59E+02,0.015840299
5.59E+02,0.015087085
5.59E+02,0.014499256
5.60E+02,0.01482105
5.60E+02,0.014810205
5.60E+02,0.014905042
5.61E+02,0.016299327
5.61E+02,0.016075641
5.61E+02,0.015463012
5.62E+02,0.014683026
5.62E+02,0.014718228
5.63E+02,0.014326965
5.63E+02,0.015297376
5.63E+02,0.013895504
5.64E+02,0.014027479
5.64E+02,0.013441098
5.64E+02,0.013697455
5.65E+02,0.015150439
5.65E+02,0.013680047
5.65E+02,0.014514147
5.66E+02,0.013767878
5.66E+02,0.014083991
5.66E+02,0.014141979
5.67E+02,0.013428107
5.67E+02,0.014495929
5.67E+02,0.013710281
5.68E+02,0.014184054
5.68E+02,0.013757801
5.69E+02,0.014750606
5.69E+02,0.015496333
5.69E+02,0.012523192
5.70E+02,0.01397018
5.70E+02,0.013317124
5.70E+02,0.01307868
5.71E+02,0.014815536
5.71E+02,0.014103116
5.71E+02,0.013586327
5.72E+02,0.01307554
5.72E+02,0.014460341
5.72E+02,0.014294391
5.73E+02,0.013226886
5.73E+02,0.014070165
5.73E+02,0.013428432
5.74E+02,0.013467536
5.74E+02,0.013996348
5.75E+02,0.014099548
5.75E+02,0.013429673
5.75E+02,0.012849121
5.76E+02,0.015999787
5.76E+02,0.017742948
5.76E+02,0.018833619
5.77E+02,0.017102632
5.77E+02,0.015200973
5.77E+02,0.01501414
5.78E+02,0.017066615
5.78E+02,0.017961983
5.78E+02,0.01904228
5.79E+02,0.017818438
5.79E+02,0.015985397
5.80E+02,0.015272236
5.80E+02,0.016052161
5.80E+02,0.014662124
5.81E+02,0.01405773
5.81E+02,0.014624583
5.81E+02,0.014223004
5.82E+02,0.013722769
5.82E+02,0.01524289
5.82E+02,0.015768438
5.83E+02,0.01585972
5.83E+02,0.014895972
5.83E+02,0.015252266
5.84E+02,0.014375063
5.84E+02,0.014573179
5.84E+02,0.015020665
5.85E+02,0.014753538
5.85E+02,0.015406189
5.85E+02,0.014331943
5.86E+02,0.014023617
5.86E+02,0.016165548
5.87E+02,0.014420557
5.87E+02,0.014716454
5.87E+02,0.014581344
5.88E+02,0.014310781
5.88E+02,0.015354967
5.88E+02,0.015359879
5.89E+02,0.014982466
5.89E+02,0.014061104
5.89E+02,0.013920858
5.90E+02,0.014262294
5.90E+02,0.014220528
5.90E+02,0.01418463
5.91E+02,0.016287998
5.91E+02,0.016071165
5.91E+02,0.014681991
5.92E+02,0.014261607
5.92E+02,0.014679106
5.93E+02,0.014847649
5.93E+02,0.015155394
5.93E+02,0.014903653
5.94E+02,0.014836162
5.94E+02,0.015990011
5.94E+02,0.013904768
5.95E+02,0.013578551
5.95E+02,0.016722419
5.95E+02,0.014069066
5.96E+02,0.015158773
5.96E+02,0.015749733
5.96E+02,0.015666669
5.97E+02,0.015197484
5.97E+02,0.016017462
5.97E+02,0.016567644
5.98E+02,0.014798296
5.98E+02,0.01651285
5.98E+02,0.016643778
5.99E+02,0.015405471
5.99E+02,0.01697474
6.00E+02,0.016736574
6.00E+02,0.015893101
6.00E+02,0.016672791
6.01E+02,0.017013415
6.01E+02,0.01749792
6.01E+02,0.016913252
6.02E+02,0.01752427
6.02E+02,0.016516167
6.02E+02,0.017507025
6.03E+02,0.01678901
6.03E+02,0.017681307
6.03E+02,0.017267212
6.04E+02,0.017713743
6.04E+02,0.017921838
6.04E+02,0.01969061
6.05E+02,0.019330589
6.05E+02,0.020504527
6.05E+02,0.020063053
6.06E+02,0.020038979
6.06E+02,0.02050264
6.07E+02,0.022243515
6.07E+02,0.020990607
6.07E+02,0.020407255
6.08E+02,0.022732293
6.08E+02,0.02294479
6.08E+02,0.023399806
6.09E+02,0.024259306
6.09E+02,0.025008762
6.09E+02,0.025145056
6.10E+02,0.028650571
6.10E+02,0.032107779
6.10E+02,0.03504535
6.11E+02,0.036989878
6.11E+02,0.035919108
6.11E+02,0.034441406
6.12E+02,0.034037847
6.12E+02,0.030967019
6.12E+02,0.032516812
6.13E+02,0.033082839
6.13E+02,0.032200302
6.14E+02,0.032044246
6.14E+02,0.031768067
6.14E+02,0.035385174
6.15E+02,0.03343462
6.15E+02,0.036284482
6.15E+02,0.035330261
6.16E+02,0.035681693
6.16E+02,0.035979116
6.16E+02,0.037417477
6.17E+02,0.038844922
6.17E+02,0.039876374
6.17E+02,0.039605829
6.18E+02,0.042091402
6.18E+02,0.041252106
6.18E+02,0.043563837
6.19E+02,0.043727492
6.19E+02,0.045873533
6.19E+02,0.048118216
6.20E+02,0.048488564
6.20E+02,0.05082926
6.20E+02,0.052092847
6.21E+02,0.054113879
6.21E+02,0.056687247
6.22E+02,0.059483588
6.22E+02,0.061562929
6.22E+02,0.06233711
6.23E+02,0.064045203
6.23E+02,0.067916595
6.23E+02,0.067539841
6.24E+02,0.071425409
6.24E+02,0.072903876
6.24E+02,0.075314868
6.25E+02,0.073753404
6.25E+02,0.07937035
6.25E+02,0.082243233
6.26E+02,0.084003817
6.26E+02,0.087599818
6.26E+02,0.089149361
6.27E+02,0.089410921
6.27E+02,0.09136664
6.27E+02,0.094412605
6.28E+02,0.09491807
6.28E+02,0.098848776
6.28E+02,0.098256934
6.29E+02,0.093611852
6.29E+02,0.096901404
6.30E+02,0.097189523
6.30E+02,0.096704823
6.30E+02,0.09487785
6.31E+02,0.095161899
6.31E+02,0.093007321
6.31E+02,0.0905295
6.32E+02,0.085281376
6.32E+02,0.084651196
6.32E+02,0.079332133
6.33E+02,0.073025658
6.33E+02,0.073059413
6.33E+02,0.069396308
6.34E+02,0.064341787
6.34E+02,0.059983244
6.34E+02,0.057110868
6.35E+02,0.053341013
6.35E+02,0.051133198
6.35E+02,0.047617717
6.36E+02,0.043486689
6.36E+02,0.042171115
6.36E+02,0.040403745
6.37E+02,0.037559739
6.37E+02,0.033981092
6.37E+02,0.033345656
6.38E+02,0.031624405
6.38E+02,0.029856943
6.38E+02,0.029865424
6.39E+02,0.025685496
6.39E+02,0.026452725
6.40E+02,0.024441717
6.40E+02,0.023536257
6.40E+02,0.023453877
6.41E+02,0.021456914
6.41E+02,0.022524407
6.41E+02,0.020423664
6.42E+02,0.019424497
6.42E+02,0.018971928
6.42E+02,0.018162543
6.43E+02,0.018977274
6.43E+02,0.015697556
6.43E+02,0.015131575
6.44E+02,0.015524893
6.44E+02,0.017206928
6.44E+02,0.015394568
6.45E+02,0.015310967
6.45E+02,0.014700858
6.45E+02,0.014385434
6.46E+02,0.012980151
6.46E+02,0.013546124
6.46E+02,0.012657229
6.47E+02,0.012769746
6.47E+02,0.011925908
6.47E+02,0.011250348
6.48E+02,0.012161883
6.48E+02,0.010458679
6.48E+02,0.010435746
6.49E+02,0.010991841
6.49E+02,0.010307701
6.50E+02,0.011044574
6.50E+02,0.011381905
6.50E+02,0.011549086
6.51E+02,0.010585596
6.51E+02,0.008713007
6.51E+02,0.008459027
6.52E+02,0.010296188
6.52E+02,0.010373229
6.52E+02,0.009617306
6.53E+02,0.009874395
6.53E+02,0.010667753
6.53E+02,0.008766077
6.54E+02,0.010032673
6.54E+02,0.010561851
6.54E+02,0.009705879
6.55E+02,0.00935712
6.55E+02,0.010263647
6.55E+02,0.010938794
6.56E+02,0.010820608
6.56E+02,0.009496326
6.56E+02,0.008763247
6.57E+02,0.008457431
6.57E+02,0.009374051
6.57E+02,0.009344826
6.58E+02,0.007799661
6.58E+02,0.007722219
6.58E+02,0.007972119
6.59E+02,0.009362551
6.59E+02,0.008899541
6.59E+02,0.008870061
6.60E+02,0.007974885
6.60E+02,0.008993674
6.60E+02,0.008529758
6.61E+02,0.008206189
6.61E+02,0.008895675
6.61E+02,0.008238919
6.62E+02,0.009367645
6.62E+02,0.008662461
6.63E+02,0.008094941
6.63E+02,0.010398091
6.63E+02,0.009002858
6.64E+02,0.009412529
6.64E+02,0.009133754
6.64E+02,0.008560517
6.65E+02,0.008967556
6.65E+02,0.009718964
6.65E+02,0.00776989
6.66E+02,0.008217893
6.66E+02,0.009125209
6.66E+02,0.009248504
6.67E+02,0.009059289
6.67E+02,0.007784363
6.67E+02,0.007599329
6.68E+02,0.008560842
6.68E+02,0.009124616
6.68E+02,0.008539171
6.69E+02,0.009307671
6.69E+02,0.008520475
6.69E+02,0.008544661
6.70E+02,0.007497644
6.70E+02,0.009016254
6.70E+02,0.007218234
6.71E+02,0.008750768
6.71E+02,0.007747738
6.71E+02,0.007811614
6.72E+02,0.006960523
6.72E+02,0.008809489
6.72E+02,0.006427487
6.73E+02,0.007460065
6.73E+02,0.007726269
6.73E+02,0.008820052
6.74E+02,0.009969887
6.74E+02,0.007770656
6.74E+02,0.008194394
6.75E+02,0.008314674
6.75E+02,0.007862871
6.75E+02,0.009377565
6.76E+02,0.010016269
6.76E+02,0.007743037
6.76E+02,0.007808033
6.77E+02,0.009702464
6.77E+02,0.010024489
6.78E+02,0.008052896
6.78E+02,0.007648953
6.78E+02,0.00981319
6.79E+02,0.00909347
6.79E+02,0.009164264
6.79E+02,0.00796993
6.80E+02,0.008406931
6.80E+02,0.008214731
6.80E+02,0.009559521
6.81E+02,0.009202503
6.81E+02,0.007301669
6.81E+02,0.007210216
6.82E+02,0.008518675
6.82E+02,0.008592163
6.82E+02,0.007752048
6.83E+02,0.009065691
6.83E+02,0.007845438
6.83E+02,0.0097114
6.84E+02,0.00902559
6.84E+02,0.009810823
6.84E+02,0.008520561
6.85E+02,0.007777393
6.85E+02,0.00763225
6.85E+02,0.008967323
6.86E+02,0.008164444
6.86E+02,0.010174056
6.86E+02,0.008145901
6.87E+02,0.008158757
6.87E+02,0.008287523
6.87E+02,0.008133781
6.88E+02,0.008041081
6.88E+02,0.007220113
6.88E+02,0.009036234
6.89E+02,0.009231237
6.89E+02,0.008408827
6.89E+02,0.008034419
6.90E+02,0.009306087
6.90E+02,0.009561362
6.90E+02,0.007878902
6.91E+02,0.00778894
6.91E+02,0.006949795
6.91E+02,0.007028646
6.92E+02,0.009253835
6.92E+02,0.008985682
6.92E+02,0.009531502
6.93E+02,0.009558056
6.93E+02,0.009639936
6.93E+02,0.007970566
6.94E+02,0.00981465
6.94E+02,0.007777962
6.94E+02,0.009105404
6.95E+02,0.010079332
6.95E+02,0.009038552
6.95E+02,0.010196381
6.96E+02,0.009810443
6.96E+02,0.009305755
6.96E+02,0.008852664
6.97E+02,0.008702969
6.97E+02,0.010857026
6.97E+02,0.008396361
6.98E+02,0.008244491
6.98E+02,0.008761901
6.98E+02,0.008239969
6.99E+02,0.007837565
6.99E+02,0.010098886
6.99E+02,0.007269101
7.00E+02,0.009786517
7.00E+02,0.008695327
7.00E+02,0.010101873
7.01E+02,0.010253719
7.01E+02,0.008586605
7.01E+02,0.010000661
7.02E+02,0.010220738
7.02E+02,0.009044248
7.02E+02,0.010412437
7.03E+02,0.008841225
7.03E+02,0.010865832
7.03E+02,0.009284085
7.04E+02,0.009761527
7.04E+02,0.008755022
7.04E+02,0.009830711
7.05E+02,0.00952782
7.05E+02,0.008641727
7.06E+02,0.010711386
7.06E+02,0.009958609
7.06E+02,0.009464346
7.07E+02,0.008435565
7.07E+02,0.010398529
7.07E+02,0.009159894
7.08E+02,0.012016743
7.08E+02,0.01124263
7.08E+02,0.009515062
7.09E+02,0.011107653
7.09E+02,0.008692004
7.09E+02,0.010693898
7.10E+02,0.010719479
7.10E+02,0.01109947
7.10E+02,0.010992914
7.11E+02,0.011305251
7.11E+02,0.009952843
7.11E+02,0.010680139
7.12E+02,0.009812114
7.12E+02,0.010338038
7.12E+02,0.011356642
7.13E+02,0.010692341
7.13E+02,0.011217928
7.13E+02,0.010051549
7.14E+02,0.013912311
7.14E+02,0.011316222
7.14E+02,0.008558488
7.15E+02,0.008660267
7.15E+02,0.010261487
7.15E+02,0.012958363
7.16E+02,0.011190926
7.16E+02,0.010717898
7.16E+02,0.009291176
7.17E+02,0.012747656
7.17E+02,0.008615674
7.17E+02,0.011203706
7.18E+02,0.009548406
7.18E+02,0.011646258
7.18E+02,0.008351415
7.19E+02,0.009850985
7.19E+02,0.011141076
7.19E+02,0.013329432
7.20E+02,0.009478302
7.20E+02,0.011221921
7.20E+02,0.011094503
7.21E+02,0.009546519
7.21E+02,0.011680574
7.21E+02,0.011103273
7.22E+02,0.011284168
7.22E+02,0.01168684
7.22E+02,0.012416915
7.23E+02,0.01184259
7.23E+02,0.010492373
7.23E+02,0.01136277
7.24E+02,0.012248695
7.24E+02,0.011673837
7.24E+02,0.013410487
7.25E+02,0.011971769
7.25E+02,0.012622614
7.25E+02,0.011169162
7.26E+02,0.011205942
7.26E+02,0.011314756
7.26E+02,0.010936235
7.27E+02,0.012393966
7.27E+02,0.011161358
7.27E+02,0.0119846
7.28E+02,0.011455528
7.28E+02,0.010760926
7.28E+02,0.01102855
7.29E+02,0.012501883
7.29E+02,0.011971671
7.29E+02,0.010466881
7.30E+02,0.01217952
7.30E+02,0.012704896
7.30E+02,0.011347279
7.31E+02,0.011051913
7.31E+02,0.012626254
7.31E+02,0.011842174
7.32E+02,0.010314969
7.32E+02,0.011317437
7.32E+02,0.010025618
7.32E+02,0.013260731
7.33E+02,0.010734352
7.33E+02,0.01035131
7.33E+02,0.011872955
7.34E+02,0.012397673
7.34E+02,0.012175012
7.34E+02,0.011952159
7.35E+02,0.009208633
735.147,0.013850153
7.35E+02,0.011952222
7.36E+02,0.011058292
7.36E+02,0.012949884
7.36E+02,0.012466546
7.37E+02,0.014284551
7.37E+02,0.01183651
7.37E+02,0.012383801
7.38E+02,0.012323571
7.38E+02,0.01621416
7.38E+02,0.011860043
7.39E+02,0.012149023
7.39E+02,0.012609509
7.39E+02,0.011770694
7.40E+02,0.015268056
7.40E+02,0.012430101
7.40E+02,0.013237647
7.41E+02,0.012307771
7.41E+02,0.010490999
7.41E+02,0.012267001
7.42E+02,0.011145964
7.42E+02,0.013377044
7.42E+02,0.013409733
7.43E+02,0.016089418
7.43E+02,0.011877019
7.43E+02,0.012704028
7.44E+02,0.013003135
7.44E+02,0.010709996
7.44E+02,0.012260886
7.45E+02,0.013734372
7.45E+02,0.015036641
7.45E+02,0.014178951
7.46E+02,0.011225515
7.46E+02,0.013976923
7.46E+02,0.013105889
7.47E+02,0.012492767
7.47E+02,0.01297892
7.47E+02,0.013373312
7.48E+02,0.012396571
7.48E+02,0.013438748
7.48E+02,0.011806199
7.49E+02,0.010997112
7.49E+02,0.012314457
7.49E+02,0.015869255
7.50E+02,0.013666767
7.50E+02,0.015479356
7.50E+02,0.01205895
7.51E+02,0.01236891
7.51E+02,0.011175119
7.51E+02,0.013658096
7.52E+02,0.01483006
7.52E+02,0.012493629
7.52E+02,0.013667426
7.53E+02,0.011330181
7.53E+02,0.013173245
7.53E+02,0.012451477
7.54E+02,0.014789327
7.54E+02,0.016757218
7.54E+02,0.014201197
7.55E+02,0.013667731
7.55E+02,0.01526902
7.55E+02,0.014331891
7.56E+02,0.014564241
7.56E+02,0.01166757
7.56E+02,0.015333422
7.57E+02,0.013404255
7.57E+02,0.012938735
7.57E+02,0.014655594
7.58E+02,0.015590171
7.58E+02,0.014329153
7.58E+02,0.012571115
7.59E+02,0.012304534
7.59E+02,0.015052385
7.59E+02,0.013291857
7.59E+02,0.013525347
7.60E+02,0.014678182
7.60E+02,0.015123989
7.60E+02,0.015166523
7.61E+02,0.014491225
7.61E+02,0.012997194
7.61E+02,0.018694025
7.62E+02,0.013594651
7.62E+02,0.013219181
7.62E+02,0.01107889
7.63E+02,0.016518721
7.63E+02,0.012607715
7.63E+02,0.012545291
7.64E+02,0.014473644
7.64E+02,0.015467126
7.64E+02,0.017634982
7.65E+02,0.014612873
7.65E+02,0.013163234
7.65E+02,0.013733396
7.66E+02,0.013773287
7.66E+02,0.011674227
7.66E+02,0.016431979
7.67E+02,0.016164738
7.67E+02,0.016004722
7.67E+02,0.017145662
7.68E+02,0.016987421
7.68E+02,0.0148614
7.68E+02,0.015026374
7.69E+02,0.015417012
7.69E+02,0.017353926
7.69E+02,0.015539717
7.70E+02,0.015368215
7.70E+02,0.017000174
7.70E+02,0.016388824
7.71E+02,0.013966868
7.71E+02,0.017859981
7.71E+02,0.01508352
7.72E+02,0.015032004
7.72E+02,0.015882029
7.72E+02,0.018346707
7.73E+02,0.014389597
7.73E+02,0.018023531
7.73E+02,0.017862657
7.73E+02,0.015711029
7.74E+02,0.021510633
7.74E+02,0.012912291
7.74E+02,0.015559486
7.75E+02,0.015274635
7.75E+02,0.021282111
7.75E+02,0.017190014
7.76E+02,0.015707764
7.76E+02,0.015648933
7.76E+02,0.017162188
7.77E+02,0.01662843
7.77E+02,0.017798583
7.77E+02,0.015300625
7.78E+02,0.017819665
7.78E+02,0.019382563
7.78E+02,0.014373212
7.79E+02,0.015295602
7.79E+02,0.015738154
7.79E+02,0.017295265
7.80E+02,0.018876665
7.80E+02,0.02073115
7.80E+02,0.018916551
7.81E+02,0.01695298
7.81E+02,0.02188058
7.81E+02,0.020935372
7.82E+02,0.018555989
7.82E+02,0.016291686
7.82E+02,0.015838878
7.83E+02,0.018633623
7.83E+02,0.014772276
7.83E+02,0.022308053
7.84E+02,0.018020133
7.84E+02,0.021225722
7.84E+02,0.019422885
7.85E+02,0.020646788
7.85E+02,0.020549692
7.85E+02,0.023364914
7.85E+02,0.016752363
7.86E+02,0.021425993
7.86E+02,0.023990897
7.86E+02,0.0188075
7.87E+02,0.018421729
7.87E+02,0.016700173
7.87E+02,0.018713751
7.88E+02,0.01819384
7.88E+02,0.019278269
7.88E+02,0.017278197
7.89E+02,0.019572276
7.89E+02,0.017435171
7.89E+02,0.01747083
7.90E+02,0.020431244
7.90E+02,0.019379478
7.90E+02,0.019261766
7.91E+02,0.022260237
7.91E+02,0.017695373
7.91E+02,0.017026371
7.92E+02,0.02301091
7.92E+02,0.016940823
7.92E+02,0.020626734
7.93E+02,0.017519597
7.93E+02,0.017538702
7.93E+02,0.019480946
7.94E+02,0.016917011
7.94E+02,0.021865669
7.94E+02,0.016680886
7.94E+02,0.015604028
7.95E+02,0.016050369
7.95E+02,0.017826944
7.95E+02,0.020058024
7.96E+02,0.01776045
7.96E+02,0.017248472
7.96E+02,0.021561651
7.97E+02,0.023398689
7.97E+02,0.020116833
7.97E+02,0.0191805
7.98E+02,0.020907025
7.98E+02,0.017875306
7.98E+02,0.020445299
7.99E+02,0.020814444
7.99E+02,0.02099329
7.99E+02,0.019350772
8.00E+02,0.018683771
8.00E+02,0.018021248
8.00E+02,0.022194874
8.01E+02,0.018530905
8.01E+02,0.020310356
8.01E+02,0.020353068
8.02E+02,0.022584073
8.02E+02,0.029718071
8.02E+02,0.023011628
8.03E+02,0.020782507
8.03E+02,0.021421383
8.03E+02,0.023985558
8.03E+02,0.019505875
8.04E+02,0.019274714
8.04E+02,0.018160003
8.04E+02,0.021472898
8.05E+02,0.019621584
8.05E+02,0.021167883
8.05E+02,0.018986521
8.06E+02,0.023556317
8.06E+02,0.021955548
8.06E+02,0.023548249
8.07E+02,0.019229419
8.07E+02,0.023880383
8.07E+02,0.021680191
8.08E+02,0.023439771
8.08E+02,0.018763616
8.08E+02,0.01619662
8.09E+02,0.024795195
8.09E+02,0.024089165
8.09E+02,0.022140407
8.10E+02,0.021466476
8.10E+02,0.024224212
8.10E+02,0.022741609
8.10E+02,0.023627561
8.11E+02,0.024021864
8.11E+02,0.025551194
8.11E+02,0.025495388
8.12E+02,0.02447601
8.12E+02,0.025557858
8.12E+02,0.024219491
8.13E+02,0.023185823
8.13E+02,0.025425739
8.13E+02,0.022427477
8.14E+02,0.020044954
8.14E+02,0.021304403
8.14E+02,0.019561213
8.15E+02,0.019652777
8.15E+02,0.023611209
8.15E+02,0.02507706
8.16E+02,0.024145014
8.16E+02,0.024938606
8.16E+02,0.018526916
8.17E+02,0.021009426
8.17E+02,0.021083475
8.17E+02,0.023084219
8.17E+02,0.024212702
8.18E+02,0.028330047
8.18E+02,0.025818893
8.18E+02,0.024179772
8.19E+02,0.022673722
8.19E+02,0.026509027
8.19E+02,0.024464964
8.20E+02,0.025269392
8.20E+02,0.022659177
8.20E+02,0.026347706
8.21E+02,0.023917532
8.21E+02,0.024024796
8.21E+02,0.024509372
8.22E+02,0.024820961
8.22E+02,0.032310135
8.22E+02,0.030792727
8.23E+02,0.029813848
8.23E+02,0.027891723
8.23E+02,0.021627238
8.24E+02,0.027792367
8.24E+02,0.028690759
8.24E+02,0.028623539
8.24E+02,0.030283026
8.25E+02,0.032136053
8.25E+02,0.027225492
8.25E+02,0.027336084
8.26E+02,0.032131119
8.26E+02,0.030670543
8.26E+02,0.025697494
8.27E+02,0.031107499
8.27E+02,0.027673991
8.27E+02,0.030984006
8.28E+02,0.032326884
8.28E+02,0.026647775
8.28E+02,0.026359607
8.29E+02,0.025051262
8.29E+02,0.029248442
8.29E+02,0.033264666
8.30E+02,0.022968332
8.30E+02,0.03317166
8.30E+02,0.026069431
8.30E+02,0.032404716
8.31E+02,0.029415282
8.31E+02,0.025540566
8.31E+02,0.028155441
8.32E+02,0.031026281
8.32E+02,0.031366737
8.32E+02,0.030604902
8.33E+02,0.031782263
8.33E+02,0.033159631
8.33E+02,0.032848452
8.34E+02,0.031051296
8.34E+02,0.029023643
8.34E+02,0.035643489
8.35E+02,0.026819268
8.35E+02,0.027594371
8.35E+02,0.032539573
8.35E+02,0.028469016
8.36E+02,0.033255596
8.36E+02,0.029126932
8.36E+02,0.032822505
8.37E+02,0.0372106
8.37E+02,0.032836053
8.37E+02,0.022337654
8.38E+02,0.026947068
8.38E+02,0.02887904
8.38E+02,0.032178575
8.39E+02,0.026812011
8.39E+02,0.029667476
8.39E+02,0.027934373
8.40E+02,0.036404918
8.40E+02,0.029799386
8.40E+02,0.025698544
8.41E+02,0.031432834
8.41E+02,0.039070846
8.41E+02,0.034502693
8.41E+02,0.027513453
8.42E+02,0.034059649
8.42E+02,0.035124169
8.42E+02,0.037669072
8.43E+02,0.041207659
8.43E+02,0.038725506
8.43E+02,0.028419289
8.44E+02,0.03098132
8.44E+02,0.02694074
8.44E+02,0.034219848
8.45E+02,0.03903922
8.45E+02,0.03716903
8.45E+02,0.033089028
8.46E+02,0.037232525
8.46E+02,0.035367151
8.46E+02,0.034986853
8.46E+02,0.034098234
8.47E+02,0.037022114
8.47E+02,0.039701801
8.47E+02,0.035745815
8.48E+02,0.036104762
8.48E+02,0.035737306
8.48E+02,0.040545
8.49E+02,0.034712102
8.49E+02,0.037946889
8.49E+02,0.038067128
8.50E+02,0.0353409
8.50E+02,0.039951463
8.50E+02,0.042965562
8.51E+02,0.036769272
8.51E+02,0.033183091
8.51E+02,0.041862215
8.51E+02,0.035857672
8.52E+02,0.043798483
8.52E+02,0.038049383
8.52E+02,0.031403794
8.53E+02,0.036977737
8.53E+02,0.038459884
8.53E+02,0.037495015
8.54E+02,0.03739015
8.54E+02,0.044161486
8.54E+02,0.042146683
8.55E+02,0.046764747
8.55E+02,0.039115747
8.55E+02,0.037553958
8.55E+02,0.049525917
8.56E+02,0.038985567
8.56E+02,0.041967565
8.56E+02,0.041557554
8.57E+02,0.037993771
8.57E+02,0.039593617
857.361,0.040038477
857.672,0.035244958
857.982,0.040911432
858.293,0.034348718
858.603,0.04592714
858.913,0.0490293
859.223,0.039185165
859.533,0.037862115
859.844,0.034163513
860.154,0.037582044
860.464,0.044011667
860.773,0.049919396
861.083,0.040471759
861.393,0.039690649
861.703,0.028916272
862.013,0.04435636
862.322,0.045159976
862.632,0.047206752
862.941,0.043679389
863.251,0.043834355
863.56,0.046230857
863.869,0.045474812
864.179,0.035889211
864.488,0.046795714
864.797,0.043181246
865.106,0.040136428
865.415,0.040919148
865.724,0.049165876
866.033,0.05295523
866.342,0.052538193
866.651,0.043954548
866.96,0.043180259
867.269,0.057807875
867.577,0.054756356
867.886,0.046045977
868.195,0.051582842
868.503,0.046136363
868.812,0.041638971
869.12,0.050927468
869.428,0.051876296
869.737,0.048689377
870.045,0.049602991
870.353,0.050192424
870.661,0.05221892
870.969,0.043107285
871.277,0.047171211
871.585,0.061124413
871.893,0.051868729
872.201,0.0521485
872.509,0.044887739
872.817,0.048985864
873.124,0.057907512
873.432,0.0553294
873.739,0.05773779
874.047,0.051434617
874.354,0.053481321
874.662,0.066249415
874.969,0.057673481
875.276,0.053095969
875.584,0.055215193
875.891,0.052070276
876.198,0.052679489
876.505,0.049911057
876.812,0.061197047
877.119,0.061140445
877.426,0.053437419
877.733,0.05952154
878.04,0.059883311
878.346,0.043039503
878.653,0.064574378
878.96,0.058135162
879.266,0.050542056
879.573,0.064512347
879.879,0.053565672
880.185,0.053450871
880.492,0.054180313
880.798,0.053642935
881.104,0.059343681
881.411,0.056385641
881.717,0.054197696
882.023,0.059601367
882.329,0.077349376
882.635,0.040819598
882.941,0.061640473
883.246,0.061589509
883.552,0.064564743
883.858,0.058821574
884.164,0.054321628
884.469,0.063374918
884.775,0.071221443
885.08,0.066682438
885.386,0.070136265
885.691,0.076337132
885.996,0.058582498
886.302,0.055181527
886.607,0.071326632
886.912,0.069339123
887.217,0.054443637
887.522,0.064757339
887.827,0.06961576
888.132,0.060132426
888.437,0.058476054
888.742,0.052615121
889.046,0.044878554
889.351,0.075533131
889.656,0.058893821
889.96,0.07526533
890.265,0.071254466
890.569,0.064806889
890.874,0.076484423
891.178,0.058504546
891.483,0.069701912
891.787,0.054461932
892.091,0.070474494
892.395,0.079227661
892.699,0.069233224
893.003,0.069727451
893.307,0.073667215
893.611,0.066483165
893.915,0.05543022
894.219,0.073583045
894.523,0.080084345
894.826,0.069531264
895.13,0.06673104
895.433,0.089129947
895.737,0.081419616
896.04,0.065255236
896.344,0.068935391
896.647,0.081586752
896.95,0.065797674
897.254,0.075034365
897.557,0.072194885
897.86,0.07178975
898.163,0.075422943
898.466,0.067524987
898.769,0.064128654
899.072,0.061773797
899.375,0.081780205
899.677,0.081940615
899.98,0.070856254
900.283,0.061882783
900.585,0.04968532
900.888,0.069830405
901.191,0.077275728
901.493,0.08007715
901.795,0.072473941
902.098,0.063329651
902.4,0.062440261
902.702,0.083004022
903.004,0.063345785
903.306,0.068262041
903.608,0.068967176
903.91,0.062271794
904.212,0.082135677
904.514,0.072256627
904.816,0.076154607
905.118,0.088133157
905.42,0.080912742
905.721,0.059658949
906.023,0.075450578
906.324,0.08059014
906.626,0.068370036
906.927,0.077863854
907.228,0.082470457
907.53,0.085526658
907.831,0.090352163
908.132,0.080213556
908.433,0.075024017
908.734,0.08429539
909.035,0.060651617
909.336,0.085854414
909.637,0.054443668
909.938,0.064412924
910.239,0.084227112
910.54,0.087531108
910.84,0.072855472
911.141,0.074338993
911.441,0.094667686
911.742,0.092178611
912.042,0.07076593
912.343,0.077492852
912.643,0.062971385
912.943,0.072215461
913.244,0.087618284
913.544,0.077153995
913.844,0.06845095
914.144,0.073695712
914.444,0.080902642
914.744,0.09923927
915.044,0.074434514
915.343,0.087351421
915.643,0.091755018
915.943,0.086097599
916.243,0.084119628
916.542,0.098738587
916.842,0.095491879
917.141,0.085069736
917.441,0.088874657
917.74,0.089436158
918.039,0.098598258
918.338,0.095886338
918.638,0.098470441
918.937,0.106494277
919.236,0.097604871
919.535,0.085940788
919.834,0.094617299
920.133,0.097411813
920.431,0.091116119
920.73,0.117626205
921.029,0.1064593
921.328,0.095881029
921.626,0.087306075
921.925,0.080037285
922.223,0.107446143
922.522,0.084071731
922.82,0.084628816
923.118,0.094282485
923.417,0.130893268
923.715,0.117717125
924.013,0.104179557
924.311,0.112580353
924.609,0.114900011
924.907,0.107860969
925.205,0.081316641
925.503,0.132298021
925.801,0.126227886
926.098,0.100770745
926.396,0.112004201
926.694,0.105470675
926.991,0.115843128
927.289,0.125739838
927.586,0.103447263
927.884,0.11929009
928.181,0.108371457
928.478,0.124323738
928.775,0.11254739
929.073,0.121912745
929.37,0.092566459
929.667,0.118705517
929.964,0.115280669
930.261,0.113744959
930.557,0.140757654
930.854,0.107550725
931.151,0.125823847
931.448,0.10767125
931.744,0.144847214
932.041,0.129260467
932.337,0.142802656
932.634,0.11923476
932.93,0.142305579
933.227,0.126167237
933.523,0.136024375
933.819,0.142987161
934.115,0.139002917
934.412,0.117858709
934.708,0.131847999
935.004,0.122734303
935.3,0.147211075
935.595,0.135901801
935.891,0.148334027
936.187,0.166206684
936.483,0.124134052
936.778,0.114561643
937.074,0.143421073
937.369,0.141677853
937.665,0.153929534
937.96,0.148403021
938.256,0.137161786
938.551,0.177411651
938.846,0.140562465
939.141,0.142944945
939.437,0.12913298
939.732,0.149942726
940.027,0.14525895
940.322,0.18025708
940.617,0.184807963
940.911,0.14932112
941.206,0.16377913
941.501,0.161938688
941.796,0.191166621
942.09,0.181834367
942.385,0.154702352
942.679,0.144628858
942.974,0.186941595
943.268,0.181984137
943.562,0.180919074
943.857,0.151705661
944.151,0.189735659
944.445,0.175424015
944.739,0.210982034
945.033,0.208893156
945.327,0.178532083
945.621,0.18550086
945.915,0.187297628
946.208,0.204357908
946.502,0.183827024
946.796,0.185360891
947.089,0.186588765
947.383,0.193479274
947.676,0.194943602
947.97,0.185129579
948.263,0.174736201
948.557,0.237533132
948.85,0.194908098
949.143,0.217162429
949.436,0.236571775
949.729,0.214234287
950.022,0.214357393
950.315,0.19021373
950.608,0.1872429
950.901,0.198604557
951.194,0.221898728
951.487,0.260411085
951.779,0.262608895
952.072,0.261474865
952.364,0.232946883
952.657,0.207178818
952.949,0.235514298
953.242,0.210876409
953.534,0.255249656
953.826,0.278035398
954.118,0.232334303
954.411,0.220674807
954.703,0.264537436
954.995,0.256498148
955.287,0.269664903
955.579,0.261161307
955.87,0.23088128
956.162,0.251290676
956.454,0.237023535
956.746,0.285879817
957.037,0.278818799
957.329,0.259824861
957.62,0.302054836
957.912,0.297166149
958.203,0.272346166
958.494,0.298512434
958.786,0.261721012
959.077,0.28986703
959.368,0.247870094
959.659,0.207187731
959.95,0.266369276
960.241,0.268806161
960.532,0.363145993
960.823,0.310325589
961.114,0.339089992
961.404,0.26865556
961.695,0.301037759
961.986,0.272405019
962.276,0.318763459
962.567,0.321249277
962.857,0.317049923
963.147,0.290687794
963.438,0.340616304
963.728,0.39814537
964.018,0.248759044
964.308,0.364253336
964.598,0.3234236
964.888,0.276661481
965.178,0.326818536
965.468,0.331651036
965.758,0.291318344
966.048,0.355792996
966.338,0.345635679
966.627,0.37283662
966.917,0.308471227
967.206,0.37895864
967.496,0.269849623
967.785,0.400707724
968.075,0.297814159
968.364,0.378379491
968.653,0.451090795
968.942,0.385671557
969.232,0.364196326
969.521,0.43096143
969.81,0.383493811
970.099,0.384807821
970.388,0.3747206
970.676,0.418298353
970.965,0.373737694
971.254,0.338941465
971.543,0.346318673
971.831,0.384299057
972.12,0.420015745
972.408,0.460950738
972.697,0.409358865
972.985,0.376999223
973.273,0.477420837
973.561,0.45635127
973.85,0.403994824
974.138,0.396011649
974.426,0.456047008
974.714,0.453670924
975.002,0.432393496
975.29,0.387776113
975.577,0.472756295
975.865,0.403298937
976.153,0.455312704
976.441,0.493322817
976.728,0.490811515
977.016,0.471762624
977.303,0.449502794
977.59,0.4955042
977.878,0.501834856
978.165,0.600161776
978.452,0.521607096
978.74,0.470086555
979.027,0.449918737
979.314,0.50862905
979.601,0.472528888
979.888,0.528877703
980.174,0.466521021
980.461,0.430526355
980.748,0.504254217
981.035,0.39984845
981.321,0.587286671
981.608,0.689053094
981.894,0.588337531
982.181,0.495286929
982.467,0.597899782
982.754,0.524255583
983.04,0.632493015
983.326,0.53887966
983.612,0.668486753
983.898,0.462893261
984.184,0.646429102
984.47,0.57877609
984.756,0.635364141
985.042,0.67967853
985.328,0.654860026
985.614,0.639811863
985.899,0.615628031
986.185,0.640084081
986.47,0.629189214
986.756,0.661005035
987.041,0.611567401
987.327,0.513383906
987.612,0.668105356
987.897,0.64099409
988.182,0.680100878
988.468,0.676874194
988.753,0.714813738
989.038,0.563491685
989.323,0.758927498
989.607,0.606169401
989.892,0.86343011
990.177,0.689859302
990.462,0.665395529
990.746,0.498544681
991.031,0.723762
991.315,0.608899057
991.6,0.627321926
991.884,0.780136483
992.169,0.621790819
992.453,0.628288244
992.737,0.714668516
993.021,0.744548143
993.305,0.658707564
993.59,0.767005685
993.874,0.557090302
994.157,0.788655588
994.441,0.78807128
994.725,0.944587284
995.009,0.917033358
995.293,0.851178169
995.576,0.641534364
995.86,0.664203514
996.143,0.82971985
996.427,0.88969773
996.71,0.800577171
996.993,0.824038873
997.277,0.917239489
997.56,0.846549952
997.843,0.917011507
998.126,0.840572991
998.409,0.91028593
998.692,1.110054822
998.975,0.88015933
999.258,0.92820817
999.541,1.100270431
999.823,1.168431816
1000.106,1.054262774
1000.388,1.01185655
1000.671,0.980671653
1000.954,0.9010659
1001.236,1.156687596
1001.518,1.187153237
1001.801,1.023247213
1002.083,1.135750698
1002.365,1.187166728
1002.647,0.989417138
1002.929,0.883498488
1003.211,1.014660846
1003.493,1.094187857
1003.775,1.174516547
1004.057,1.178400841
1004.338,1.091153588
1004.62,1.36629842
1004.902,1.139155661
1005.183,1.110179418
1005.465,1.283216193
1005.746,1.304613743
1006.028,1.343618488
1006.309,1.364482136
1006.59,1.167119293
1006.871,1.233470801
1007.153,0.895414981
1007.434,1.48541294
1007.715,1.436573468
1007.996,1.35580237
1008.277,1.484368874
1008.557,1.376518105
1008.838,1.532572728
1009.119,1.432223155
1009.4,1.548828182
1009.68,1.045183365
1009.961,1.482244289
1010.241,1.544730132
1010.522,1.525819616
1010.802,1.485689838
1011.082,1.518828309
1011.362,1.356203276
1011.643,1.808402371
1011.923,1.52594959
1012.203,0.922678176
1012.483,1.711738857
1012.763,1.795058855
1013.042,1.833418728
1013.322,1.816783451
1013.602,1.769150663
1013.882,1.477072519
1014.161,1.776459207
1014.441,1.624624379
1014.72,1.39223722
1015,1.809863962
1015.279,1.561605842
1015.558,1.551247648
1015.838,1.635529961
1016.117,1.835569698
1016.396,1.446582341
1016.675,1.888216247
1016.954,1.910513372
1017.233,1.9330859
1017.512,2.009755846
1017.791,1.810002686
1018.07,1.829160733
1018.348,2.075399573
1018.627,1.973681182
1018.905,1.862664605
1019.184,2.023968894
1019.462,2.330137185
1019.741,1.795980749
1020.019,2.373337972
1020.297,2.004735877
1020.576,1.843129648
1020.854,1.870377716
1021.132,2.142280093
1021.41,2.141206202
1021.688,2.140132757
